"SubNo","StimNoise","TrialValidity2","n_trials","accuracy","confidence","rt"
"19","low noise","Invalid",22,0.954545454545455,94.2649147727273,0.717014298816635
"19","low noise","non-predictive",24,1,99.5171440972222,0.66993767451883
"19","low noise","Valid",84,0.988095238095238,98.2700892857143,0.692750694518465
"19","high noise","Invalid",17,0.823529411764706,40.1348039215686,1.06019731837681
"19","high noise","non-predictive",24,0.791666666666667,39.8817274305556,1.02961035240151
"19","high noise","Valid",83,0.746987951807229,37.6694277108434,1.07424846287334
"20","low noise","Invalid",16,1,99.9918619791667,0.668395537446486
"20","low noise","non-predictive",24,1,100,0.567147223259477
"20","low noise","Valid",67,1,100,0.644453532032933
"20","high noise","Invalid",15,0.8,70.4079861111111,0.979315347868639
"20","high noise","non-predictive",21,0.714285714285714,57.1056547619048,1.07307735810034
"20","high noise","Valid",64,0.796875,61.2223307291667,0.918152755217306
"22","low noise","Invalid",17,1,70.4044117647059,0.699355006074149
"22","low noise","non-predictive",24,1,76.2586805555555,0.653398735293498
"22","low noise","Valid",87,1,72.6906728927203,0.63683406370237
"22","high noise","Invalid",24,0.666666666666667,31.8088107638889,1.10248916438528
"22","high noise","non-predictive",22,0.727272727272727,34.7774621212121,1.05328327513152
"22","high noise","Valid",79,0.708860759493671,34.8101265822785,0.957418078761489
"23","low noise","Invalid",18,1,94.7844328703704,0.455852960740837
"23","low noise","non-predictive",24,1,95.2094184027778,0.411748646118212
"23","low noise","Valid",90,1,98.0541087962963,0.416519464721851
"23","high noise","Invalid",24,0.583333333333333,57.2699652777778,0.600895672182863
"23","high noise","non-predictive",24,0.458333333333333,52.3817274305555,0.730803801333726
"23","high noise","Valid",83,0.626506024096386,55.5848393574297,0.649786087437477
"24","low noise","Invalid",17,1,95.2435661764706,0.758384037701248
"24","low noise","non-predictive",23,1,92.3007246376812,0.794436288299039
"24","low noise","Valid",81,1,95.1195987654321,0.716218306950328
"24","high noise","Invalid",21,0.666666666666667,55.1835317460318,0.853153695003129
"24","high noise","non-predictive",20,0.6,44.8177083333333,1.09840375158819
"24","high noise","Valid",67,0.776119402985075,57.2702891791045,1.06835209110008
"25","low noise","Invalid",19,1,70.5660635964912,0.716547928131676
"25","low noise","non-predictive",24,1,70.263671875,0.714543732950309
"25","low noise","Valid",88,0.988636363636364,72.4905303030303,0.656589576585578
"25","high noise","Invalid",23,0.739130434782609,62.6868206521739,0.907925285738083
"25","high noise","non-predictive",24,0.583333333333333,63.6284722222222,0.762343886861345
"25","high noise","Valid",85,0.564705882352941,64.6920955882353,0.712615571884603
"26","low noise","Invalid",19,0.947368421052632,80.2768640350877,0.687149346150507
"26","low noise","non-predictive",21,1,79.0612599206349,0.821567371914474
"26","low noise","Valid",77,0.922077922077922,76.0213744588745,0.767478896034337
"26","high noise","Invalid",16,0.5625,53.5400390625,0.756896468898049
"26","high noise","non-predictive",19,0.789473684210526,64.6107456140351,0.840926804114133
"26","high noise","Valid",73,0.794520547945205,58.5295376712329,0.856660647244409
"27","low noise","Invalid",19,1,91.5227521929825,0.819641381440881
"27","low noise","non-predictive",24,1,89.3446180555556,0.625112548174608
"27","low noise","Valid",84,1,90.0282118055556,0.700465147384897
"27","high noise","Invalid",21,0.571428571428571,45.8395337301587,0.765237547107972
"27","high noise","non-predictive",24,0.583333333333333,42.3828125,0.767143050165032
"27","high noise","Valid",86,0.581395348837209,41.6621245155039,0.803038210279124
"28","low noise","Invalid",23,0.956521739130435,95.6521739130435,0.46312566503437
"28","low noise","non-predictive",24,1,100,0.461028728168458
"28","low noise","Valid",84,1,100,0.481817701031798
"28","high noise","Invalid",18,0.555555555555556,99.2693865740741,0.530159503648368
"28","high noise","non-predictive",24,0.583333333333333,96.5386284722222,0.580333657456019
"28","high noise","Valid",86,0.569767441860465,94.7099079457364,0.567101156418916
"29","low noise","Invalid",19,0.947368421052632,95.984100877193,0.805939574756561
"29","low noise","non-predictive",23,0.956521739130435,91.1514945652174,0.751587748527527
"29","low noise","Valid",79,0.987341772151899,94.4834520042194,0.752856741012428
"29","high noise","Invalid",19,0.473684210526316,91.515899122807,0.985513983453673
"29","high noise","non-predictive",22,0.727272727272727,81.4808238636364,0.997019104410852
"29","high noise","Valid",71,0.71830985915493,80.4669160798122,0.998322547024811
"30","low noise","Invalid",19,1,97.9166666666667,0.634787713937265
"30","low noise","non-predictive",20,1,97.01171875,0.551000742980978
"30","low noise","Valid",79,0.987341772151899,97.3694620253165,0.566658987447065
"30","high noise","Invalid",18,0.777777777777778,60.7855902777778,0.951539772931332
"30","high noise","non-predictive",22,0.772727272727273,71.7625473484848,0.950344489257655
"30","high noise","Valid",75,0.786666666666667,70.5277777777778,0.902407899781441
"31","low noise","Invalid",27,1,92.1585648148148,0.56313453520286
"31","low noise","non-predictive",23,1,95.4370471014493,0.526702807785984
"31","low noise","Valid",80,1,93.8541666666667,0.50301954424649
"31","high noise","Invalid",15,0.666666666666667,50.625,0.987020550171534
"31","high noise","non-predictive",22,0.727272727272727,61.0617897727273,0.960940445561639
"31","high noise","Valid",90,0.933333333333333,61.9719328703704,0.800366167380061
"32","low noise","Invalid",19,1,99.7669956140351,0.835702284318884
"32","low noise","non-predictive",24,1,99.9240451388889,0.731738231794831
"32","low noise","Valid",87,1,99.9296575670498,0.797291139671954
"32","high noise","Invalid",20,0.65,37.0052083333333,1.15224098094041
"32","high noise","non-predictive",24,0.583333333333333,44.2979600694444,1.06372454272544
"32","high noise","Valid",80,0.6625,42.9134114583333,1.06826700397069
"34","low noise","Invalid",24,0.958333333333333,84.1145833333333,0.747724201277985
"34","low noise","non-predictive",24,0.958333333333333,94.3793402777778,0.779588925463031
"34","low noise","Valid",78,0.974358974358974,90.1459001068376,0.741915809193578
"34","high noise","Invalid",16,0.4375,67.6350911458333,1.13144123028905
"34","high noise","non-predictive",22,0.590909090909091,77.2194602272727,1.05911600168011
"34","high noise","Valid",83,0.686746987951807,75.9051832329317,0.984149371585192
"35","low noise","Invalid",17,0.941176470588235,94.1176470588235,0.839054189300549
"35","low noise","non-predictive",24,1,95.4861111111111,0.742884910985595
"35","low noise","Valid",85,1,97.9335171568627,0.81641295853427
"35","high noise","Invalid",22,0.590909090909091,67.3354640151515,1.12911389661233
"35","high noise","non-predictive",22,0.636363636363636,57.2383996212121,1.04821994933511
"35","high noise","Valid",76,0.578947368421053,65.3645833333333,1.05058459393331
"36","low noise","Invalid",16,1,93.3512369791667,0.884887830659863
"36","low noise","non-predictive",23,1,99.4735054347826,0.638173581769123
"36","low noise","Valid",85,1,97.8125,0.638594660701175
"36","high noise","Invalid",24,0.583333333333333,42.6378038194444,0.933212890745685
"36","high noise","non-predictive",22,0.727272727272727,46.875,1.0789559510092
"36","high noise","Valid",74,0.797297297297297,55.4757882882883,0.981638334735573
"38","low noise","Invalid",23,1,97.7864583333333,0.706872236626425
"38","low noise","non-predictive",24,1,97.6996527777778,0.566437006937728
"38","low noise","Valid",83,1,97.9025476907631,0.598705441859293
"38","high noise","Invalid",18,0.555555555555556,41.1096643518518,1.00368956582517
"38","high noise","non-predictive",24,0.833333333333333,34.7764756944444,1.02192094693601
"38","high noise","Valid",85,0.647058823529412,41.5287990196078,1.00854238199536
"39","low noise","Invalid",17,1,81.9852941176471,1.17018765503513
"39","low noise","non-predictive",21,1,85.218253968254,1.10110624264815
"39","low noise","Valid",77,1,86.0524891774892,1.13329885721467
"39","high noise","Invalid",17,0.588235294117647,62.0098039215686,1.10322161433835
"39","high noise","non-predictive",22,0.909090909090909,65.329071969697,1.26962337860393
"39","high noise","Valid",75,0.826666666666667,59.5972222222222,1.199221630812
"40","low noise","Invalid",15,0.8,76.7708333333333,0.772200764102551
"40","low noise","non-predictive",21,0.666666666666667,80.2641369047619,0.63830489617595
"40","low noise","Valid",82,0.768292682926829,81.9232723577236,0.818882527367905
"40","high noise","Invalid",22,0.590909090909091,68.1048768939394,0.785115945565684
"40","high noise","non-predictive",23,0.565217391304348,62.013134057971,0.845071984703005
"40","high noise","Valid",70,0.585714285714286,61.2760416666667,0.773976209663254
"41","low noise","Invalid",11,1,81.8181818181818,1.46088413016828
"41","low noise","non-predictive",22,0.909090909090909,63.6363636363636,1.39550231876042
"41","low noise","Valid",72,0.972222222222222,68.0754484953704,1.2429886950057
"41","high noise","Invalid",11,0.454545454545455,63.6363636363636,1.40244233841077
"41","high noise","non-predictive",16,0.625,56.2418619791667,1.35067826843442
"41","high noise","Valid",41,0.975609756097561,75.5875254065041,1.344951420517
"42","low noise","Invalid",19,1,87.4931469298246,0.771695678238757
"42","low noise","non-predictive",24,1,92.6486545138889,0.637554132714286
"42","low noise","Valid",88,1,91.9048887310606,0.724539804625568
"42","high noise","Invalid",21,0.619047619047619,56.2872023809524,0.840610933573251
"42","high noise","non-predictive",24,0.541666666666667,63.57421875,0.809087705449201
"42","high noise","Valid",83,0.734939759036145,60.2425326305221,0.904237467611871
"43","low noise","Invalid",19,1,93.5238486842105,0.975112405777174
"43","low noise","non-predictive",16,1,96.5576171875,0.82046321695816
"43","low noise","Valid",61,1,97.9188012295082,0.882732330955046
"43","high noise","Invalid",11,0.545454545454545,66.4772727272727,1.21646789947144
"43","high noise","non-predictive",14,0.571428571428571,71.2146577380952,1.0484740852345
"43","high noise","Valid",64,0.65625,73.553466796875,0.999612881762005
"44","low noise","Invalid",19,1,94.4558662280702,0.824381827346148
"44","low noise","non-predictive",23,1,92.6234148550725,0.716669554822147
"44","low noise","Valid",77,0.974025974025974,92.3549107142857,0.747303735281873
"44","high noise","Invalid",16,0.6875,38.0533854166667,1.41084479212441
"44","high noise","non-predictive",23,0.695652173913043,47.4184782608696,1.32048451981467
"44","high noise","Valid",63,0.682539682539683,46.5484457671958,1.2621465246729
"45","low noise","Invalid",16,1,99.9186197916667,0.496813610465324
"45","low noise","non-predictive",24,1,100,0.390210670380232
"45","low noise","Valid",85,1,99.9325980392157,0.440384919062147
"45","high noise","Invalid",19,0.631578947368421,85.5263157894737,0.723212310241683
"45","high noise","non-predictive",24,0.583333333333333,88.1184895833333,0.665499694596898
"45","high noise","Valid",88,0.636363636363636,89.7327769886364,0.657447380253209
"46","low noise","Invalid",24,1,92.0355902777778,0.445567564611944
"46","low noise","non-predictive",22,1,89.1098484848485,0.441033433911137
"46","low noise","Valid",77,1,87.30045995671,0.513368921959168
"46","high noise","Invalid",15,0.666666666666667,59.4010416666667,1.01788205851335
"46","high noise","non-predictive",23,0.521739130434783,60.9997735507246,0.81236227817388
"46","high noise","Valid",87,0.597701149425287,62.3398587164751,0.97213649671209
"47","low noise","Invalid",12,1,98.8172743055556,0.675840117241023
"47","low noise","non-predictive",24,1,93.26171875,0.672779408690985
"47","low noise","Valid",88,1,97.6384943181818,0.717337456153473
"47","high noise","Invalid",22,0.545454545454545,43.0101799242424,1.30793302836405
"47","high noise","non-predictive",19,0.736842105263158,39.6450109649123,1.08706284093205
"47","high noise","Valid",78,0.807692307692308,43.9236111111111,1.17213087689388
"48","low noise","Invalid",19,1,99.9588815789474,0.568984108057952
"48","low noise","non-predictive",23,1,99.9603713768116,0.572532354727509
"48","low noise","Valid",88,0.988636363636364,99.5176373106061,0.644967832861849
"48","high noise","Invalid",17,0.588235294117647,88.5952818627451,0.854292018619804
"48","high noise","non-predictive",24,0.708333333333333,89.4585503472222,0.829557877116409
"48","high noise","Valid",90,0.844444444444444,93.2942708333333,0.76640030802745
"49","low noise","Invalid",14,1,96.6424851190476,0.901950331695843
"49","low noise","non-predictive",24,0.958333333333333,90.9342447916667,0.754776092246175
"49","low noise","Valid",88,1,95.9531841856061,0.761388163173582
"49","high noise","Invalid",21,0.761904761904762,70.1202876984127,1.02256360381753
"49","high noise","non-predictive",22,0.863636363636364,70.0698390151515,0.795044618378266
"49","high noise","Valid",78,0.948717948717949,66.200921474359,0.975892162889254
"50","low noise","Invalid",22,1,99.6389678030303,0.891436236264947
"50","low noise","non-predictive",24,1,99.2838541666667,0.916936822361701
"50","low noise","Valid",85,1,99.7732843137255,0.89057064853499
"50","high noise","Invalid",17,0.647058823529412,41.1228553921569,1.220668266048
"50","high noise","non-predictive",24,0.625,33.3658854166667,1.07732477186558
"50","high noise","Valid",80,0.575,44.4807942708333,1.04247687576572
"51","low noise","Invalid",15,1,100,0.762452157679945
"51","low noise","non-predictive",24,1,99.8752170138889,0.704148773889756
"51","low noise","Valid",86,1,99.9379239341085,0.751364178476357
"51","high noise","Invalid",19,0.473684210526316,49.3626644736842,0.968847135572058
"51","high noise","non-predictive",22,0.5,55.1491477272727,0.991924529567107
"51","high noise","Valid",80,0.6125,54.2708333333333,1.00052211389702
"52","low noise","Invalid",19,1,80.297423245614,0.645864462394169
"52","low noise","non-predictive",22,0.954545454545455,82.7769886363636,0.779236338164827
"52","low noise","Valid",67,1,91.1147388059701,0.620242850448408
"52","high noise","Invalid",17,0.823529411764706,59.8115808823529,1.0363545695402
"52","high noise","non-predictive",21,0.952380952380952,52.9265873015873,0.976307171873659
"52","high noise","Valid",63,0.888888888888889,58.6991567460317,0.920906604589185
"54","low noise","Invalid",18,1,93.4606481481481,0.636120810044101
"54","low noise","non-predictive",23,1,93.4386322463768,0.517186568260355
"54","low noise","Valid",88,1,93.7381628787879,0.510341530848316
"54","high noise","Invalid",19,0.526315789473684,59.8615679824561,0.614378588286375
"54","high noise","non-predictive",23,0.478260869565217,65.7325634057971,0.507858416591973
"54","high noise","Valid",86,0.523255813953488,62.9148498062016,0.629347584532509
"55","low noise","Invalid",18,1,82.7690972222222,0.818002865533345
"55","low noise","non-predictive",23,1,84.3410326086957,0.780701497691157
"55","low noise","Valid",86,1,85.1229408914729,0.826796046336355
"55","high noise","Invalid",19,0.631578947368421,68.6951754385965,0.910938695403993
"55","high noise","non-predictive",22,0.590909090909091,62.4644886363636,1.10562137898523
"55","high noise","Valid",78,0.628205128205128,60.1629273504273,0.990090813881789
"56","low noise","Invalid",22,1,91.4831912878788,0.814252368386158
"56","low noise","non-predictive",24,1,96.8695746527778,0.782680604762087
"56","low noise","Valid",81,0.987654320987654,96.7013888888889,0.821064813200522
"56","high noise","Invalid",14,0.428571428571429,58.0636160714286,1.17573803340617
"56","high noise","non-predictive",23,0.695652173913043,54.1326992753623,1.028529805192
"56","high noise","Valid",83,0.650602409638554,61.9697540160643,1.00365789290742
"58","low noise","Invalid",19,1,99.0200109649123,0.743274749906146
"58","low noise","non-predictive",24,1,100,0.738825050095329
"58","low noise","Valid",87,1,99.8608117816092,0.725777776858331
"58","high noise","Invalid",17,0.823529411764706,55.5223651960784,1.13628484593595
"58","high noise","non-predictive",23,0.869565217391304,73.6809329710145,0.838805626551418
"58","high noise","Valid",80,0.85,63.5188802083333,1.09194266362756
"59","low noise","Invalid",23,1,90.138134057971,0.577707399006771
"59","low noise","non-predictive",24,1,87.5271267361111,0.538786676809347
"59","low noise","Valid",83,1,89.4154743975904,0.5856480860286
"59","high noise","Invalid",19,0.421052631578947,49.4174890350877,1.02161719984571
"59","high noise","non-predictive",23,0.434782608695652,44.2821557971014,1.02327691747443
"59","high noise","Valid",84,0.607142857142857,42.6990327380952,1.04116694822109
"60","low noise","Invalid",23,1,91.304347826087,0.705159779668421
"60","low noise","non-predictive",23,1,95.8786231884058,0.632935994993085
"60","low noise","Valid",80,1,93.9143880208333,0.614817115376354
"60","high noise","Invalid",13,0.615384615384615,58.1630608974359,1.04712719998609
"60","high noise","non-predictive",24,0.666666666666667,64.1981336805556,0.904235080456904
"60","high noise","Valid",93,0.817204301075269,57.7480958781362,1.01903564310933
"61","low noise","Invalid",20,1,98.9583333333333,0.47114759668475
"61","low noise","non-predictive",24,1,99.853515625,0.424051617320705
"61","low noise","Valid",85,1,99.7150735294118,0.480820404105436
"61","high noise","Invalid",16,0.75,67.5618489583333,0.612571815625415
"61","high noise","non-predictive",24,0.791666666666667,60.2593315972222,0.652968485849366
"61","high noise","Valid",89,0.674157303370786,62.451720505618,0.710647191878492
"62","low noise","Invalid",16,1,97.4202473958333,0.726968535542255
"62","low noise","non-predictive",23,1,99.9377264492754,0.640584969447683
"62","low noise","Valid",91,1,94.6571657509158,0.598780949592365
"62","high noise","Invalid",21,0.619047619047619,48.7847222222222,0.908803006323675
"62","high noise","non-predictive",24,0.583333333333333,43.75,1.00046426786381
"62","high noise","Valid",85,0.588235294117647,45.2803308823529,0.921806140723364
"63","low noise","Invalid",20,1,88.0403645833333,0.661760085390415
"63","low noise","non-predictive",24,1,88.9485677083333,0.651656684911965
"63","low noise","Valid",81,1,89.1091177983539,0.63225684654439
"63","high noise","Invalid",20,0.55,67.578125,0.843166604859289
"63","high noise","non-predictive",22,0.636363636363636,66.5601325757576,0.874536790535786
"63","high noise","Valid",82,0.646341463414634,59.9228277439024,0.884229135858577
"64","low noise","Invalid",20,0.95,84.6614583333333,0.957978162355721
"64","low noise","non-predictive",24,1,93.0392795138889,0.665624967941161
"64","low noise","Valid",84,0.988095238095238,92.3456101190476,0.682682025864432
"64","high noise","Invalid",21,0.80952380952381,48.5181051587302,0.835190183272408
"64","high noise","non-predictive",22,0.818181818181818,39.3406723484849,0.846818357970649
"64","high noise","Valid",78,0.705128205128205,33.7506677350427,0.92041166821041
"65","low noise","Invalid",15,1,94.0972222222222,0.616153917554766
"65","low noise","non-predictive",24,1,90.1204427083333,0.707627207254215
"65","low noise","Valid",84,0.964285714285714,90.7614087301587,0.638507280476569
"65","high noise","Invalid",18,0.555555555555556,50.1085069444444,1.00810626586382
"65","high noise","non-predictive",20,0.85,61.7317708333333,0.97965007838793
"65","high noise","Valid",80,0.825,60.3694661458333,0.854162571099005
"66","low noise","Invalid",15,1,94.3315972222222,0.721684186719358
"66","low noise","non-predictive",23,1,96.2975543478261,0.732905111478075
"66","low noise","Valid",88,1,96.6811671401515,0.677687858673215
"66","high noise","Invalid",22,0.454545454545455,58.6766098484848,0.986482948604548
"66","high noise","non-predictive",23,0.652173913043478,47.950634057971,0.973650646638935
"66","high noise","Valid",78,0.743589743589744,53.7877270299145,1.04655552609489
"67","low noise","Invalid",17,1,85.2787990196078,0.521886684740071
"67","low noise","non-predictive",24,1,87.1310763888889,0.415991604900531
"67","low noise","Valid",89,0.97752808988764,81.0188436329588,0.509201019139061
"67","high noise","Invalid",25,0.52,62.8958333333333,0.547961467811838
"67","high noise","non-predictive",24,0.666666666666667,59.375,0.490600570881118
"67","high noise","Valid",80,0.5875,56.0986328125,0.554222881922033
"69","low noise","Invalid",16,1,90.283203125,0.704043717836612
"69","low noise","non-predictive",23,1,98.6469655797101,0.656428672960433
"69","low noise","Valid",87,0.988505747126437,94.4938338122605,0.669853635359791
"69","high noise","Invalid",25,0.8,70.2135416666667,0.856469711139798
"69","high noise","non-predictive",24,0.666666666666667,66.4388020833333,0.96467625106258
"69","high noise","Valid",80,0.8,66.6080729166667,0.921018533883034
"70","low noise","Invalid",20,1,91.5559895833333,0.760919839818962
"70","low noise","non-predictive",24,1,92.2471788194444,0.583972638987082
"70","low noise","Valid",86,0.988372093023256,92.8128028100775,0.650619232109314
"70","high noise","Invalid",16,0.6875,64.0625,0.673573628504528
"70","high noise","non-predictive",24,0.791666666666667,52.9730902777778,0.827189406632291
"70","high noise","Valid",87,0.724137931034483,62.4386374521073,0.80971217213798
"71","low noise","Invalid",18,1,86.0821759259259,0.585577328042645
"71","low noise","non-predictive",24,1,85.8723958333333,0.512941033715227
"71","low noise","Valid",87,1,90.1730124521073,0.464084202455806
"71","high noise","Invalid",24,0.75,77.3491753472222,0.664835018804297
"71","high noise","non-predictive",23,0.608695652173913,69.633152173913,0.530926226698996
"71","high noise","Valid",82,0.75609756097561,69.4550304878049,0.639528857433328
"72","low noise","Invalid",28,1,100,0.719649862082276
"72","low noise","non-predictive",24,1,99.9728732638889,0.719575905726136
"72","low noise","Valid",79,1,99.4033491561181,0.710073408679565
"72","high noise","Invalid",14,0.5,69.4196428571429,1.02305769291706
"72","high noise","non-predictive",24,0.583333333333333,60.9700520833333,1.02551441458248
"72","high noise","Valid",93,0.602150537634409,71.0391465053764,0.967435100103318
"73","low noise","Invalid",15,1,100,0.449176607296492
"73","low noise","non-predictive",24,0.958333333333333,98.0305989583333,0.467173242980304
"73","low noise","Valid",91,1,99.65086996337,0.472959131511583
"73","high noise","Invalid",21,0.857142857142857,62.5868055555556,0.977100684130121
"73","high noise","non-predictive",24,0.833333333333333,68.3430989583333,0.748953208482514
"73","high noise","Valid",86,0.906976744186046,69.343507751938,0.735416798210746
"74","low noise","Invalid",23,1,97.5033967391304,0.731543249622716
"74","low noise","non-predictive",24,1,96.0503472222222,0.701530077591694
"74","low noise","Valid",82,1,97.7372332317073,0.72097975639456
"74","high noise","Invalid",13,0.538461538461538,66.7668269230769,1.05211592356388
"74","high noise","non-predictive",22,0.454545454545455,61.422821969697,1.11102984440301
"74","high noise","Valid",82,0.585365853658537,62.5095274390244,1.00927043330526
"75","low noise","Invalid",12,1,97.16796875,0.98942809169724
"75","low noise","non-predictive",23,1,96.3768115942029,0.911427303844981
"75","low noise","Valid",86,1,93.9513687015504,0.888835795678544
"75","high noise","Invalid",21,0.714285714285714,53.7016369047619,1.28613834059797
"75","high noise","non-predictive",23,0.782608695652174,59.4089673913043,1.16487147985026
"75","high noise","Valid",74,0.851351351351351,66.3499436936937,1.14381782020556
"76","low noise","Invalid",8,1,61.03515625,1.22417516898713
"76","low noise","non-predictive",9,1,54.8177083333333,0.979265259889265
"76","low noise","Valid",65,0.984615384615385,72.0592948717949,1.07206704216436
"76","high noise","Invalid",13,0.538461538461538,49.3489583333333,1.34951341191593
"76","high noise","non-predictive",12,0.666666666666667,48.6002604166667,1.20482912888595
"76","high noise","Valid",37,0.756756756756757,50.4047015765766,1.23810516854094
"77","low noise","Invalid",20,1,99.8958333333333,0.768853121914435
"77","low noise","non-predictive",24,1,99.2133246527778,0.766145020655434
"77","low noise","Valid",87,0.988505747126437,98.5692049808429,0.733028492911708
"77","high noise","Invalid",18,0.555555555555556,66.1603009259259,1.08874152652505
"77","high noise","non-predictive",21,0.666666666666667,63.9384920634921,1.09320683577763
"77","high noise","Valid",75,0.56,60.0208333333333,1.16962990956381
"78","low noise","Invalid",19,1,79.8656798245614,0.638568791965219
"78","low noise","non-predictive",24,0.958333333333333,88.7152777777778,0.606094581938426
"78","low noise","Valid",87,0.988505747126437,83.0340038314176,0.576175096843542
"78","high noise","Invalid",18,0.777777777777778,46.8605324074074,0.805072248990958
"78","high noise","non-predictive",23,0.695652173913043,38.8926630434783,0.881219562790964
"78","high noise","Valid",88,0.829545454545455,46.9904119318182,0.726798209539001
"79","low noise","Invalid",20,1,95.3450520833333,0.636368546111044
"79","low noise","non-predictive",24,1,94.82421875,0.607915469561704
"79","low noise","Valid",85,1,92.8170955882353,0.658635116530144
"79","high noise","Invalid",21,0.571428571428571,21.9866071428572,1.15653965400443
"79","high noise","non-predictive",24,0.666666666666667,36.3661024305556,1.05242456012638
"79","high noise","Valid",85,0.858823529411765,37.0863970588235,0.950689804340329
"80","low noise","Invalid",22,0.954545454545455,99.1773200757576,0.838427976260639
"80","low noise","non-predictive",24,1,98.3344184027778,0.725848273645776
"80","low noise","Valid",86,1,97.6289970930233,0.731463837900286
"80","high noise","Invalid",14,0.642857142857143,53.8039434523809,1.17968310046542
"80","high noise","non-predictive",24,0.625,53.1467013888889,1.03182161635292
"80","high noise","Valid",89,0.696629213483146,54.3422284644195,1.07963529429817
"81","low noise","Invalid",17,1,41.4139093137255,0.957242422915228
"81","low noise","non-predictive",23,1,49.3093297101449,0.91323614099225
"81","low noise","Valid",72,1,48.1318721064815,0.956978246333569
"81","high noise","Invalid",19,0.842105263157895,50.0068530701754,1.10197108403142
"81","high noise","non-predictive",24,0.833333333333333,49.5713975694444,1.14818755487795
"81","high noise","Valid",73,0.876712328767123,48.334046803653,1.11804689878713
"82","low noise","Invalid",14,1,87.1000744047619,0.793072162944425
"82","low noise","non-predictive",24,1,94.3576388888889,0.791094970074482
"82","low noise","Valid",87,0.977011494252874,91.9360632183908,0.716197714819733
"82","high noise","Invalid",24,0.708333333333333,68.1640625,0.973704070725944
"82","high noise","non-predictive",24,0.875,71.1805555555556,1.0718267406434
"82","high noise","Valid",72,0.763888888888889,72.9094328703704,0.996471009139593
"84","low noise","Invalid",21,1,100,0.470739692638052
"84","low noise","non-predictive",24,1,99.9728732638889,0.41265955104609
"84","low noise","Valid",85,1,99.9647671568627,0.431368640273371
"84","high noise","Invalid",15,0.8,66.7881944444444,1.04124975190498
"84","high noise","non-predictive",24,0.833333333333333,70.8333333333333,1.03893806877507
"84","high noise","Valid",87,0.804597701149425,82.993594348659,0.911169544833808
"85","low noise","Invalid",19,1,94.8190789473684,0.732602077303454
"85","low noise","non-predictive",21,1,99.5287698412698,0.643525282530824
"85","low noise","Valid",80,1,94.5817057291667,0.686270585077
"85","high noise","Invalid",13,0.923076923076923,79.8978365384615,0.88303503813222
"85","high noise","non-predictive",21,0.761904761904762,85.4972718253968,0.777773281459563
"85","high noise","Valid",65,0.892307692307692,78.7860576923077,0.948316907925675
"86","low noise","Invalid",26,1,98.0719150641026,0.825873929819164
"86","low noise","non-predictive",24,1,99.7016059027778,0.696300344066306
"86","low noise","Valid",78,1,99.5459401709402,0.727198391988611
"86","high noise","Invalid",16,0.625,67.87109375,0.963404610534781
"86","high noise","non-predictive",24,0.541666666666667,73.1987847222222,0.927458244356482
"86","high noise","Valid",87,0.71264367816092,68.8308189655172,1.03842634889404
"87","low noise","Invalid",21,1,95.2752976190476,0.62293867677051
"87","low noise","non-predictive",24,1,96.5549045138889,0.633956414424271
"87","low noise","Valid",82,1,96.4970782520325,0.559184503650702
"87","high noise","Invalid",18,0.722222222222222,50.5570023148148,1.28796109638643
"87","high noise","non-predictive",23,0.826086956521739,62.2169384057971,0.946691894387502
"87","high noise","Valid",85,0.694117647058824,60.3416053921569,0.986634901697363
"88","low noise","Invalid",1,1,100,0.304239339195192
"88","low noise","non-predictive",1,1,100,0.913770249113441
"88","low noise","Valid",2,1,100,0.533906403928995
"88","high noise","non-predictive",1,1,61.1979166666667,0.513194922124967
"88","high noise","Valid",1,1,100,0.54491393500939
"90","low noise","Invalid",20,1,76.796875,0.755618997791316
"90","low noise","non-predictive",23,1,77.2701539855072,0.670861989796242
"90","low noise","Valid",85,0.976470588235294,80.531556372549,0.641022779836374
"90","high noise","Invalid",21,0.761904761904762,39.7011408730159,0.893557668297685
"90","high noise","non-predictive",24,0.833333333333333,43.06640625,0.97870406966346
"90","high noise","Valid",85,0.823529411764706,46.4460784313725,0.91396598376005
"91","low noise","Invalid",4,1,75.4557291666667,0.623711336869746
"91","low noise","non-predictive",11,1,58.6766098484849,0.539103008573875
"91","low noise","Valid",25,1,69.3854166666667,0.570655232416466
"91","high noise","Invalid",9,0.222222222222222,41.5075231481481,0.774269162315047
"91","high noise","non-predictive",11,0.454545454545455,48.9938446969697,0.76530743483454
"91","high noise","Valid",29,0.482758620689655,37.0016163793104,1.04917291841662
"93","low noise","Invalid",21,1,95.6349206349206,0.534068539040163
"93","low noise","non-predictive",24,1,96.0666232638889,0.501315035740845
"93","low noise","Valid",83,1,94.7116591365462,0.517241298950401
"93","high noise","Invalid",20,0.9,54.2122395833333,0.696956467779819
"93","high noise","non-predictive",24,0.791666666666667,50.2061631944444,0.765595379266112
"93","high noise","Valid",86,0.767441860465116,55.0887233527132,0.664733696888677
"94","low noise","Invalid",20,1,97.6888020833333,0.50297252262244
"94","low noise","non-predictive",24,1,99.1482204861111,0.495843323646113
"94","low noise","Valid",86,1,99.0749152131783,0.438109099247688
"94","high noise","Invalid",21,0.476190476190476,73.1460813492063,0.764069123803416
"94","high noise","non-predictive",22,0.590909090909091,61.0795454545455,0.958338125926358
"94","high noise","Valid",85,0.658823529411765,71.484375,0.771226643329925
"95","low noise","Invalid",23,1,92.8781702898551,0.637912406778449
"95","low noise","non-predictive",24,1,96.1588541666667,0.624184453549484
"95","low noise","Valid",84,1,96.9788566468254,0.58873252497731
"95","high noise","Invalid",14,0.285714285714286,27.3716517857143,0.728027054491187
"95","high noise","non-predictive",24,0.666666666666667,39.794921875,0.715427249408094
"95","high noise","Valid",90,0.744444444444444,38.9771412037037,0.75394714517881
"96","low noise","Invalid",20,1,94.3294270833333,0.85535375836771
"96","low noise","non-predictive",22,0.954545454545455,87.9557291666667,0.745683677060614
"96","low noise","Valid",76,0.960526315789474,90.2395148026316,0.814691071707976
"96","high noise","Invalid",15,0.733333333333333,54.5833333333333,1.21901786993258
"96","high noise","non-predictive",22,0.727272727272727,58.7890625,0.961621640165421
"96","high noise","Valid",81,0.691358024691358,60.9953703703704,0.967077776088299
"97","low noise","Invalid",21,1,83.5999503968254,0.660480787401043
"97","low noise","non-predictive",23,0.91304347826087,87.2678894927536,0.581030228053746
"97","low noise","Valid",86,1,86.8065649224806,0.5952802459509
"97","high noise","Invalid",21,0.571428571428571,59.3315972222222,0.626944596978969
"97","high noise","non-predictive",24,0.541666666666667,58.6154513888889,0.750217784720007
"97","high noise","Valid",83,0.578313253012048,56.6343498995984,0.772078805364646
"98","low noise","Invalid",22,1,91.4180871212121,0.546857078792528
"98","low noise","non-predictive",24,0.958333333333333,95.8550347222222,0.518350991371942
"98","low noise","Valid",82,0.98780487804878,92.7877286585366,0.515451809749144
"98","high noise","Invalid",14,0.642857142857143,65.531994047619,0.713504904265782
"98","high noise","non-predictive",24,0.625,68.0067274305556,0.610755185363814
"98","high noise","Valid",94,0.670212765957447,63.5804521276596,0.728900937623582
"99","low noise","Invalid",22,0.954545454545455,98.8695549242424,0.57015447569376
"99","low noise","non-predictive",24,1,100,0.591631394432625
"99","low noise","Valid",86,1,99.3640988372093,0.608018375291532
"99","high noise","Invalid",19,0.684210526315789,55.3522478070175,0.79063693044315
"99","high noise","non-predictive",24,0.666666666666667,55.5772569444444,0.776447789025648
"99","high noise","Valid",85,0.670588235294118,54.2769607843137,0.862785766996881
"100","low noise","Invalid",16,0.9375,85.5631510416667,1.10720575443702
"100","low noise","non-predictive",23,1,94.6954257246377,0.948571517243576
"100","low noise","Valid",88,1,93.4318773674242,0.930775154908505
"100","high noise","Invalid",17,0.470588235294118,52.5352328431373,0.973996345268782
"100","high noise","non-predictive",23,0.739130434782609,66.4628623188406,1.09537086091207
"100","high noise","Valid",77,0.571428571428571,56.540854978355,1.16708327921761
"101","low noise","Invalid",21,1,81.7522321428572,0.623561201395378
"101","low noise","non-predictive",24,1,87.5813802083333,0.718050156293126
"101","low noise","Valid",76,1,89.9071408991228,0.651328026393649
"101","high noise","Invalid",19,0.578947368421053,45.4495614035088,0.844419058657398
"101","high noise","non-predictive",23,0.826086956521739,51.2058423913043,0.888363287500714
"101","high noise","Valid",83,0.662650602409639,44.4261420682731,0.823891773160704
"102","low noise","Invalid",16,0.9375,74.2757161458333,0.907729841259425
"102","low noise","non-predictive",23,1,68.4273097826087,0.948167752646638
"102","low noise","Valid",83,0.987951807228916,80.8342745983936,0.861866930934477
"102","high noise","Invalid",23,0.652173913043478,59.375,1.04589927264327
"102","high noise","non-predictive",20,0.6,42.3372395833333,1.14118810438085
"102","high noise","Valid",66,0.636363636363636,41.4831912878788,1.10590324278526
"103","low noise","Invalid",18,1,93.8585069444444,0.451945231503083
"103","low noise","non-predictive",23,1,92.7592844202899,0.44175231906221
"103","low noise","Valid",89,1,91.6227762172285,0.470104106775161
"103","high noise","Invalid",19,0.473684210526316,56.0992324561404,0.812106696263838
"103","high noise","non-predictive",24,0.625,57.5086805555556,0.799543420716266
"103","high noise","Valid",87,0.551724137931034,54.6351173371648,0.780314053569374
"104","low noise","Invalid",21,1,93.2849702380952,0.653122589402344
"104","low noise","non-predictive",24,1,88.6935763888889,0.603125088236993
"104","low noise","Valid",84,1,91.4915054563492,0.587932993813107
"104","high noise","Invalid",18,0.888888888888889,49.8336226851852,0.887296069503969
"104","high noise","non-predictive",22,0.681818181818182,49.3844696969697,0.795237843476405
"104","high noise","Valid",80,0.75,54.4254557291667,0.786507020451245
"105","low noise","Invalid",19,1,96.6077302631579,0.604723230629277
"105","low noise","non-predictive",24,1,97.9058159722222,0.483777011017082
"105","low noise","Valid",88,1,98.0024857954545,0.539242933094184
"105","high noise","Invalid",21,0.666666666666667,43.3469742063492,0.876374683963756
"105","high noise","non-predictive",24,0.75,46.5494791666667,0.804429882312737
"105","high noise","Valid",86,0.767441860465116,48.7009447674419,0.917221914619467
"106","low noise","Invalid",22,1,92.7616003787879,0.99160878711634
"106","low noise","non-predictive",24,1,88.6990017361111,0.906705993809737
"106","low noise","Valid",85,1,93.7009803921569,0.937532582177835
"106","high noise","Invalid",19,0.631578947368421,53.9679276315789,1.12572418600566
"106","high noise","non-predictive",24,0.708333333333333,43.1803385416667,1.0378358453454
"106","high noise","Valid",84,0.702380952380952,49.9891493055556,1.06601750627825
"107","low noise","Invalid",21,1,78.546626984127,0.818342666563001
"107","low noise","non-predictive",24,1,84.3587239583333,0.769275517037992
"107","low noise","Valid",86,1,84.9003754844961,0.714788008716802
"107","high noise","Invalid",19,0.842105263157895,51.9873903508772,1.05568847092065
"107","high noise","non-predictive",23,0.739130434782609,38.6888586956522,1.11353576482962
"107","high noise","Valid",79,0.708860759493671,40.7024657172996,1.1370693687379
"108","low noise","Invalid",20,0.95,93.984375,0.627922188758384
"108","low noise","non-predictive",24,1,97.4338107638889,0.681505019165343
"108","low noise","Valid",88,0.977272727272727,96.4917732007576,0.633156644392081
"108","high noise","Invalid",22,0.727272727272727,57.9012784090909,0.859824998219582
"108","high noise","non-predictive",24,0.666666666666667,72.5531684027778,0.778320860534829
"108","high noise","Valid",82,0.768292682926829,63.3939913617886,0.857922692479361
"109","low noise","Invalid",13,1,100,0.74380158007933
"109","low noise","non-predictive",23,1,96.4277626811594,0.584164997188213
"109","low noise","Valid",92,1,94.3430140398551,0.608766382122311
"109","high noise","Invalid",23,0.521739130434783,71.5183423913044,0.742778445877459
"109","high noise","non-predictive",23,0.521739130434783,74.6999547101449,0.666803630676282
"109","high noise","Valid",83,0.602409638554217,72.1856174698795,0.689296504838886
"110","low noise","Valid",1,0,5.859375,1.06938858912326
"110","high noise","Invalid",1,1,36.5885416666667,0.672329256311059
"110","high noise","non-predictive",3,0.666666666666667,49.609375,0.939713322479897
"111","low noise","Invalid",22,1,85.8309659090909,0.809051403744061
"111","low noise","non-predictive",24,1,84.7384982638889,0.698442996440766
"111","low noise","Valid",84,1,88.4021577380952,0.637701218712166
"111","high noise","Invalid",12,0.583333333333333,54.3619791666667,0.909179273119662
"111","high noise","non-predictive",22,0.681818181818182,59.8721590909091,1.01427485945169
"111","high noise","Valid",90,0.744444444444444,51.0026041666667,0.949709214026936
"112","low noise","Invalid",21,1,82.6078869047619,0.595842013335122
"112","low noise","non-predictive",22,1,84.8307291666667,0.599897579459304
"112","low noise","Valid",80,1,83.7044270833333,0.566627968559624
"112","high noise","Invalid",13,0.538461538461538,37.6602564102564,1.01575164290933
"112","high noise","non-predictive",21,0.666666666666667,38.5106646825397,0.768869320141329
"112","high noise","Valid",88,0.704545454545455,35.7865767045455,0.919812204350654
"113","low noise","Invalid",18,1,68.6342592592593,0.55604688219157
"113","low noise","non-predictive",24,1,75.0759548611111,0.471853174763964
"113","low noise","Valid",84,1,77.5421626984127,0.543106267267528
"113","high noise","Invalid",23,0.652173913043478,37.9076086956522,0.737927997768249
"113","high noise","non-predictive",23,0.695652173913043,43.2914402173913,0.777815280674511
"113","high noise","Valid",81,0.62962962962963,44.1100823045267,0.752733172771211
"114","low noise","Invalid",17,1,80.093443627451,0.925618574872393
"114","low noise","non-predictive",24,0.958333333333333,68.6740451388889,1.00782633461252
"114","low noise","Valid",77,0.974025974025974,75.7203733766234,0.942191567952297
"114","high noise","Invalid",21,0.571428571428571,45.7279265873016,1.18984245298253
"114","high noise","non-predictive",20,0.65,33.0338541666667,1.21854561682558
"114","high noise","Valid",74,0.72972972972973,43.5476492117117,1.19344756746274
"115","low noise","Invalid",21,1,87.2953869047619,0.749250590424275
"115","low noise","non-predictive",24,1,85.5034722222222,0.666747174672006
"115","low noise","Valid",83,1,88.0459337349398,0.688295899088079
"115","high noise","Invalid",18,0.777777777777778,63.6935763888889,1.01192028517835
"115","high noise","non-predictive",24,0.708333333333333,58.88671875,0.817961887495282
"115","high noise","Valid",82,0.719512195121951,63.1748602642276,0.910788355872217
"116","low noise","Invalid",14,1,88.4579613095238,0.793603571996625
"116","low noise","non-predictive",24,0.958333333333333,89.9576822916667,0.678195100665714
"116","low noise","Valid",69,0.985507246376812,92.0572916666667,0.759260220601615
"116","high noise","Invalid",13,0.769230769230769,62.1394230769231,1.27359605036103
"116","high noise","non-predictive",19,0.684210526315789,67.7563048245614,0.959057446201577
"116","high noise","Valid",68,0.647058823529412,66.3832720588235,1.04301082229187
"117","low noise","Invalid",19,1,96.0526315789474,0.611287792531871
"117","low noise","non-predictive",21,1,96.9618055555555,0.476442917094877
"117","low noise","Valid",62,1,94.7097614247312,0.483966070092133
"117","high noise","Invalid",17,0.764705882352941,89.2463235294118,0.805948668515639
"117","high noise","non-predictive",24,0.583333333333333,89.4151475694445,0.824050342082046
"117","high noise","Valid",64,0.59375,92.4112955729167,0.814298072196834
"118","low noise","Invalid",19,1,88.2743969298246,0.624747393407712
"118","low noise","non-predictive",24,1,93.9019097222222,0.569734293831668
"118","low noise","Valid",87,0.988505747126437,91.9914391762452,0.583454972684341
"118","high noise","Invalid",23,0.565217391304348,33.3389945652174,0.966923323459924
"118","high noise","non-predictive",24,0.75,35.302734375,0.978103086546374
"118","high noise","Valid",84,0.714285714285714,40.074714781746,1.0016581357867
"119","low noise","Invalid",25,1,98.375,0.742261874899268
"119","low noise","non-predictive",24,1,99.1265190972222,0.6037696871014
"119","low noise","Valid",81,1,98.7348894032922,0.625946557114798
"119","high noise","Invalid",17,0.764705882352941,82.2686887254902,0.85387008801541
"119","high noise","non-predictive",24,0.583333333333333,65.5870225694445,0.943380253855139
"119","high noise","Valid",87,0.67816091954023,70.0041906130268,0.85665165343932
"120","low noise","Invalid",20,1,83.26171875,1.06110885662492
"120","low noise","non-predictive",23,1,90.0588768115942,1.08164760518981
"120","low noise","Valid",80,1,89.6500651041667,1.05116538678412
"120","high noise","Invalid",19,0.894736842105263,53.9131030701754,1.28905446310283
"120","high noise","non-predictive",20,0.7,56.0286458333333,1.36495550142135
"120","high noise","Valid",75,0.72,52.4600694444444,1.35514604633674
"122","low noise","Invalid",20,1,76.40625,0.894777497905307
"122","low noise","non-predictive",21,1,77.6041666666667,0.788074657919684
"122","low noise","Valid",75,1,76.5538194444444,0.932480097437898
"122","high noise","Invalid",11,1,75.6747159090909,1.22546077714386
"122","high noise","non-predictive",19,0.894736842105263,79.8108552631579,1.02387686407096
"122","high noise","Valid",78,0.897435897435897,76.0082799145299,1.09867948614873
"123","low noise","Invalid",17,1,99.9617034313725,1.08917165963965
"123","low noise","non-predictive",24,1,99.4900173611111,0.932305835342656
"123","low noise","Valid",87,0.988505747126437,99.4582136015326,1.00890447073027
"123","high noise","Invalid",24,0.625,42.1440972222222,0.901882409506167
"123","high noise","non-predictive",24,0.541666666666667,37.0985243055556,0.768944649530264
"123","high noise","Valid",79,0.658227848101266,39.3097310126582,0.883773518266463
"124","low noise","Invalid",21,1,86.266121031746,0.726681945357649
"124","low noise","non-predictive",24,1,80.2300347222222,0.737231531199844
"124","low noise","Valid",85,1,82.3468137254902,0.789589019727838
"124","high noise","Invalid",16,0.625,25.9602864583333,0.954302645346615
"124","high noise","non-predictive",24,0.583333333333333,17.529296875,0.955446566513274
"124","high noise","Valid",91,0.67032967032967,25.390625,0.942773187128766
"127","low noise","Invalid",17,1,96.9822303921569,0.899414984806808
"127","low noise","non-predictive",24,1,93.26171875,0.767741052501227
"127","low noise","Valid",91,1,95.0792696886447,0.734085195603956
"127","high noise","Invalid",23,0.521739130434783,28.515625,1.03508124501193
"127","high noise","non-predictive",23,0.826086956521739,34.2221467391304,1.01504409665611
"127","high noise","Valid",77,0.766233766233766,27.7884875541126,1.11715802784502
"128","low noise","Invalid",7,0.857142857142857,59.765625,0.833112422714163
"128","low noise","non-predictive",4,1,70.0520833333333,0.602437087448379
"128","low noise","Valid",30,1,64.8350694444444,0.748976373119998
"128","high noise","Invalid",7,0.142857142857143,44.4196428571429,1.147816380792
"128","high noise","non-predictive",6,0.5,58.1163194444444,1.13108973783104
"128","high noise","Valid",28,0.75,54.3805803571428,1.05072345974557
"129","low noise","Invalid",16,1,82.12890625,0.703122273180042
"129","low noise","non-predictive",23,1,94.435009057971,0.722536667431363
"129","low noise","Valid",90,0.988888888888889,89.4039351851852,0.788459512745289
"129","high noise","Invalid",23,0.782608695652174,42.5611413043478,0.948145812541834
"129","high noise","non-predictive",24,0.583333333333333,50.7269965277778,0.923665892570322
"129","high noise","Valid",82,0.658536585365854,46.5431275406504,0.937909762425767
"130","low noise","Invalid",21,1,93.2105654761905,0.568281057213469
"130","low noise","non-predictive",24,1,87.4403211805556,0.669390813418128
"130","low noise","Valid",87,1,91.3658405172414,0.539528725396232
"130","high noise","Invalid",16,0.6875,34.7330729166667,0.770410509132716
"130","high noise","non-predictive",24,0.583333333333333,25.8843315972222,0.783583289169655
"130","high noise","Valid",90,0.655555555555556,28.6458333333333,0.843362449356048
"131","low noise","Invalid",21,1,88.1634424603175,0.765148944565832
"131","low noise","non-predictive",24,0.958333333333333,83.3821614583333,0.787402949263802
"131","low noise","Valid",85,1,88.5738357843137,0.825838222613246
"131","high noise","Invalid",20,0.7,61.42578125,1.1962068809531
"131","high noise","non-predictive",24,0.666666666666667,58.740234375,1.10427190320903
"131","high noise","Valid",82,0.670731707317073,57.739456300813,1.17870237070782
"132","low noise","Invalid",21,1,97.3400297619048,0.499943951242867
"132","low noise","non-predictive",24,1,97.1571180555555,0.475791170812651
"132","low noise","Valid",86,1,98.1452882751938,0.535847575366693
"132","high noise","Invalid",21,0.619047619047619,53.4474206349206,0.837503534935379
"132","high noise","non-predictive",24,0.583333333333333,54.19921875,0.75043555604528
"132","high noise","Valid",85,0.705882352941177,59.4469975490196,0.819010087686954
"134","low noise","Invalid",20,1,94.9088541666667,0.814055378187186
"134","low noise","non-predictive",23,1,95.8276721014493,0.845880057963254
"134","low noise","Valid",79,1,98.4440928270042,0.78921281824259
"134","high noise","Invalid",17,0.647058823529412,37.3468137254902,1.12445693820979
"134","high noise","non-predictive",23,0.652173913043478,72.9959239130435,0.961897494105632
"134","high noise","Valid",75,0.813333333333333,59.2673611111111,1.01939088613513
"135","low noise","Invalid",20,1,88.2096354166667,0.901314856614044
"135","low noise","non-predictive",21,1,96.4967757936508,0.868996229563934
"135","low noise","Valid",76,0.960526315789474,90.1401452850877,0.855642607997747
"135","high noise","Invalid",14,0.571428571428571,57.9427083333333,0.920512781500292
"135","high noise","non-predictive",19,0.526315789473684,52.9468201754386,0.857391833548287
"135","high noise","Valid",67,0.716417910447761,55.7622046019901,0.968091905070555
"136","low noise","Invalid",16,1,100,0.627266488760142
"136","low noise","non-predictive",24,1,99.8643663194444,0.610057640700082
"136","low noise","Valid",92,0.989130434782609,99.1055253623188,0.609446214637105
"136","high noise","Invalid",20,0.7,64.8372395833333,0.9048475803771
"136","high noise","non-predictive",24,0.875,52.3817274305556,0.822926264007037
"136","high noise","Valid",83,0.698795180722892,60.8151355421687,0.80432325017292
"137","low noise","Invalid",14,1,76.5438988095238,0.577076801185155
"137","low noise","non-predictive",23,1,78.4363677536232,0.709941199438459
"137","low noise","Valid",83,0.987951807228916,78.0136169678715,0.574922333361549
"137","high noise","Invalid",26,1,55.0931490384615,0.892383700258505
"137","high noise","non-predictive",23,0.91304347826087,57.3029891304348,0.644977548856253
"137","high noise","Valid",75,0.92,49.2708333333333,0.779688141604226
"138","low noise","Invalid",17,1,96.1397058823529,0.628776730766677
"138","low noise","non-predictive",24,1,93.7120225694444,0.730033795462077
"138","low noise","Valid",86,1,93.3881419573643,0.670733450896203
"138","high noise","Invalid",22,0.863636363636364,51.8465909090909,1.05669518327671
"138","high noise","non-predictive",24,0.833333333333333,43.0338541666667,0.995531557221814
"138","high noise","Valid",81,0.716049382716049,48.1368955761317,1.00723471909881
"139","low noise","Invalid",20,1,78.1901041666667,0.719925949189201
"139","low noise","non-predictive",23,1,84.958106884058,0.524498253941799
"139","low noise","Valid",80,1,83.3072916666667,0.59947292973302
"139","high noise","Invalid",18,0.555555555555556,37.9050925925926,0.843715460278974
"139","high noise","non-predictive",23,0.782608695652174,40.5400815217391,0.842348958435216
"139","high noise","Valid",82,0.670731707317073,46.581237296748,0.847276588225923
"140","low noise","Invalid",9,1,86.1545138888889,0.843986609569079
"140","low noise","non-predictive",23,1,83.2710597826087,0.829467111563249
"140","low noise","Valid",81,1,86.5837191358025,0.845846752376356
"140","high noise","Invalid",25,0.72,69.7760416666667,1.13553988471278
"140","high noise","non-predictive",19,0.736842105263158,71.265076754386,1.17354241250034
"140","high noise","Valid",64,0.703125,71.7569986979167,1.13986535503591
"142","low noise","Invalid",21,1,87.3201884920635,0.807585139722852
"142","low noise","non-predictive",24,0.958333333333333,81.4670138888889,0.892950603281254
"142","low noise","Valid",80,1,85.146484375,0.73030239392283
"142","high noise","Invalid",21,0.761904761904762,73.1336805555556,1.16004643629311
"142","high noise","non-predictive",23,0.652173913043478,77.6041666666667,1.13586512977718
"142","high noise","Valid",77,0.61038961038961,72.9335768398268,1.06660547451526
"143","low noise","Invalid",18,1,90.6177662037037,0.710492832278962
"143","low noise","non-predictive",18,1,92.1296296296296,0.88773009728013
"143","low noise","Valid",67,0.985074626865672,88.8701026119403,0.873041022751818
"143","high noise","Invalid",13,0.615384615384615,61.2479967948718,1.1096506679359
"143","high noise","non-predictive",18,0.666666666666667,61.0894097222222,1.09491435218014
"143","high noise","Valid",68,0.647058823529412,64.5220588235294,1.11973196283147
"144","low noise","Invalid",15,1,99.5833333333333,0.545005513520058
"144","low noise","non-predictive",24,1,100,0.487764878496819
"144","low noise","Valid",92,1,99.2286571557971,0.492083176466859
"144","high noise","Invalid",21,0.333333333333333,62.4131944444444,0.956707094486948
"144","high noise","non-predictive",24,0.708333333333333,60.7801649305556,0.846241297707214
"144","high noise","Valid",83,0.795180722891566,64.5096009036145,0.832220219986664
"145","low noise","Invalid",16,1,92.5862630208333,0.477885769654677
"145","low noise","non-predictive",24,1,93.2400173611111,0.565136968711158
"145","low noise","Valid",89,1,94.1581811797753,0.443737054003005
"145","high noise","Invalid",21,0.761904761904762,53.6148313492064,0.756878124921405
"145","high noise","non-predictive",23,0.521739130434783,61.2545289855072,0.697262350722904
"145","high noise","Valid",82,0.731707317073171,53.612487296748,0.638131148920809
"146","low noise","Invalid",21,1,96.4037698412698,1.08771728096984
"146","low noise","non-predictive",23,1,97.1071105072464,0.90224234157991
"146","low noise","Valid",83,1,96.0153112449799,0.9373150052582
"146","high noise","Invalid",19,0.631578947368421,61.4446271929825,1.22387702963897
"146","high noise","non-predictive",22,0.590909090909091,68.8683712121212,1.11180150534413
"146","high noise","Valid",79,0.69620253164557,69.140625,1.15070716048962
"147","low noise","Invalid",3,1,96.7447916666667,0.451257716388985
"147","low noise","non-predictive",7,1,96.2425595238095,0.356678243664127
"147","low noise","Valid",6,1,98.5243055555555,0.402410958088391
"147","high noise","Invalid",1,1,75.9114583333333,0.371141709969379
"147","high noise","non-predictive",6,0.666666666666667,81.0763888888889,0.598090776795289
"147","high noise","Valid",8,0.5,96.0286458333333,0.62487873671489
"148","low noise","Invalid",16,1,100,0.605433501845255
"148","low noise","non-predictive",21,1,100,0.669910925706583
"148","low noise","Valid",84,1,99.3892609126984,0.75427165917132
"148","high noise","Invalid",20,0.7,72.3046875,1.10023330351978
"148","high noise","non-predictive",22,0.545454545454545,76.3198390151515,1.01159115814054
"148","high noise","Valid",75,0.666666666666667,77.578125,1.08523064834764
"149","low noise","Invalid",16,0.9375,75.9602864583333,0.796584072355472
"149","low noise","non-predictive",22,0.954545454545455,78.8589015151515,0.796533039263026
"149","low noise","Valid",86,1,84.0918725775194,0.710626444802349
"149","high noise","Invalid",20,0.75,45.9309895833333,0.937132168014068
"149","high noise","non-predictive",22,0.636363636363636,40.8203125,0.976152325014648
"149","high noise","Valid",76,0.736842105263158,38.5947779605263,0.927592289098692
"150","low noise","Invalid",17,1,96.3082107843137,0.622631818066378
"150","low noise","non-predictive",24,1,98.9691840277778,0.658403091809305
"150","low noise","Valid",81,0.975308641975309,93.8528806584362,0.65854159426907
"150","high noise","Invalid",17,0.823529411764706,55.0015318627451,1.09052472849897
"150","high noise","non-predictive",23,0.739130434782609,51.1322463768116,1.19013845998004
"150","high noise","Valid",78,0.756410256410256,50.6744123931624,1.08209225591511
"151","low noise","Invalid",21,1,100,0.940056092141839
"151","low noise","non-predictive",24,1,99.951171875,0.830684869198497
"151","low noise","Valid",86,1,99.9969718992248,0.820875940864722
"151","high noise","Invalid",18,0.666666666666667,87.7821180555556,1.08243145094861
"151","high noise","non-predictive",21,0.571428571428571,91.9642857142857,1.12873557550622
"151","high noise","Valid",85,0.694117647058824,78.5493259803922,1.1379237119896
"153","low noise","Invalid",5,1,92.3958333333333,0.503739272372332
"153","low noise","non-predictive",6,1,100,0.564705997462928
"153","low noise","Valid",20,0.95,95,0.533111808617832
"153","high noise","Invalid",6,0.5,45.1822916666667,0.954474882872697
"153","high noise","non-predictive",6,0.833333333333333,29.8611111111111,0.935456542385509
"153","high noise","Valid",18,0.777777777777778,46.6579861111111,0.76616428660216
"154","low noise","Invalid",20,1,93.6653645833333,0.55710238792235
"154","low noise","non-predictive",23,1,88.2359601449275,0.584117211588739
"154","low noise","Valid",87,1,92.1695402298851,0.540661751414414
"154","high noise","Invalid",22,0.772727272727273,78.0717329545455,0.827724974028321
"154","high noise","non-predictive",23,0.869565217391304,74.5867300724638,0.729412103719685
"154","high noise","Valid",81,0.740740740740741,76.5271347736626,0.760863583970436
"156","low noise","Invalid",16,1,91.8619791666667,0.813767570354685
"156","low noise","non-predictive",24,1,96.0177951388889,0.772446848932305
"156","low noise","Valid",82,1,90.1645071138211,0.805313972248724
"156","high noise","Invalid",14,0.642857142857143,37.5279017857143,1.11139484045478
"156","high noise","non-predictive",19,0.526315789473684,39.7957785087719,1.16804222218496
"156","high noise","Valid",74,0.675675675675676,38.1017736486486,1.13231241246811
"158","low noise","Invalid",15,1,98.5069444444444,0.364882192818914
"158","low noise","non-predictive",24,1,94.7048611111111,0.438170690814634
"158","low noise","Valid",91,1,98.1613438644689,0.431622505834669
"158","high noise","Invalid",20,0.75,63.76953125,0.750877715271781
"158","high noise","non-predictive",23,0.652173913043478,68.0989583333333,0.737220726203699
"158","high noise","Valid",82,0.804878048780488,73.731262703252,0.624211154808574
"159","low noise","Invalid",17,1,93.6504289215686,0.46614591510939
"159","low noise","non-predictive",24,1,96.8641493055556,0.366365965244768
"159","low noise","Valid",91,1,94.5570054945055,0.376242668503527
"159","high noise","Invalid",25,0.8,51.0729166666667,0.719439943213947
"159","high noise","non-predictive",24,0.833333333333333,48.7141927083333,0.736028308456298
"159","high noise","Valid",81,0.851851851851852,43.8335905349794,0.707895968816484
"160","low noise","Invalid",18,1,98.5966435185185,0.711911455983581
"160","low noise","non-predictive",24,0.958333333333333,95.6217447916667,0.701982342082677
"160","low noise","Valid",89,0.98876404494382,97.3124414794007,0.554674570583425
"160","high noise","Invalid",18,0.666666666666667,60.1128472222222,1.04906317511793
"160","high noise","non-predictive",24,0.625,61.1979166666667,0.90941641292496
"160","high noise","Valid",84,0.80952380952381,69.3700396825397,0.82472735541662
"161","low noise","Invalid",21,1,88.6904761904762,0.74621355441022
"161","low noise","non-predictive",24,1,93.6197916666667,0.557230794404556
"161","low noise","Valid",84,1,89.9119543650794,0.608686306065508
"161","high noise","Invalid",15,0.933333333333333,62.4045138888889,1.00699806834261
"161","high noise","non-predictive",21,1,66.4620535714286,0.914634612832396
"161","high noise","Valid",79,1,69.651569092827,0.843220140071014
"162","low noise","Invalid",24,0.958333333333333,86.4529079861111,0.517428123152058
"162","low noise","non-predictive",24,0.958333333333333,89.4639756944444,0.525169191173821
"162","low noise","Valid",79,0.974683544303797,92.6572389240506,0.515425984776443
"162","high noise","Invalid",17,0.705882352941177,79.7717524509804,0.706846496138229
"162","high noise","non-predictive",23,0.565217391304348,64.7758152173913,0.817858668765479
"162","high noise","Valid",89,0.573033707865168,75.4564606741573,0.744409438454823
"163","low noise","Invalid",18,1,100,0.621442194827573
"163","low noise","non-predictive",24,1,98.2150607638889,0.705461189761991
"163","low noise","Valid",84,1,97.7678571428571,0.741294516064781
"163","high noise","Invalid",21,0.476190476190476,83.3519345238095,1.15315903866819
"163","high noise","non-predictive",21,0.666666666666667,85.1314484126984,1.04595130306691
"163","high noise","Valid",78,0.58974358974359,82.2382478632479,0.97171913282289
"164","low noise","Invalid",18,1,91.1096643518519,0.811295725741527
"164","low noise","non-predictive",23,1,93.6254528985507,0.73452852485175
"164","low noise","Valid",86,1,92.5145348837209,0.70561740683056
"164","high noise","Invalid",19,0.842105263157895,18.6472039473684,1.10168374641063
"164","high noise","non-predictive",21,0.714285714285714,9.07118055555555,1.02120033124395
"164","high noise","Valid",77,0.714285714285714,21.9899891774892,0.893973426775426
"168","low noise","Invalid",17,1,94.0027573529412,0.806066912427709
"168","low noise","non-predictive",23,1,100,0.802637419455847
"168","low noise","Valid",81,1,98.3523019547325,0.79089672515531
"168","high noise","Invalid",24,0.625,62.6573350694444,0.91527589483303
"168","high noise","non-predictive",23,0.608695652173913,64.6569293478261,1.05151855842838
"168","high noise","Valid",76,0.657894736842105,65.3954221491228,1.04580436431264
"169","low noise","Invalid",18,1,98.8064236111111,0.546843757400186
"169","low noise","non-predictive",23,1,100,0.520473216407244
"169","low noise","Valid",82,1,99.4331173780488,0.510011455457283
"169","high noise","Invalid",19,0.789473684210526,62.8563596491228,0.986060259263277
"169","high noise","non-predictive",22,0.681818181818182,64.6425189393939,0.920315973407758
"169","high noise","Valid",84,0.833333333333333,55.926029265873,0.963269397117464
"170","low noise","Invalid",15,1,99.2534722222222,0.599935176518435
"170","low noise","non-predictive",20,1,97.2135416666667,0.590490263025276
"170","low noise","Valid",67,1,98.9835976368159,0.595405139112428
"170","high noise","Invalid",17,1,89.5986519607843,0.907680570962838
"170","high noise","non-predictive",21,0.857142857142857,82.8125,0.856153945654764
"170","high noise","Valid",66,0.878787878787879,83.9153251262626,0.863453161184831
"171","low noise","Invalid",15,1,82.6649305555556,0.88073836301919
"171","low noise","non-predictive",24,1,82.7528211805556,0.873263670568122
"171","low noise","Valid",87,0.988505747126437,79.7967552681992,0.940675987666687
"171","high noise","Invalid",19,0.526315789473684,42.4958881578947,1.17396102583428
"171","high noise","non-predictive",24,0.625,43.7934027777778,1.0867260589536
"171","high noise","Valid",77,0.597402597402597,41.3555194805195,1.17055351506501
"172","low noise","Invalid",21,1,92.5037202380952,0.805562511391361
"172","low noise","non-predictive",24,1,94.1514756944444,0.679309006688224
"172","low noise","Valid",85,1,92.5428921568627,0.736905889110366
"172","high noise","Invalid",19,0.842105263157895,60.6222587719298,1.12140257293849
"172","high noise","non-predictive",22,0.818181818181818,57.0194128787879,1.21680882487933
"172","high noise","Valid",81,0.691358024691358,56.6293724279835,1.18712354833145
"173","low noise","Invalid",20,1,80.5598958333333,0.537385633954546
"173","low noise","non-predictive",23,1,82.6766304347826,0.544042649871224
"173","low noise","Valid",88,0.988636363636364,79.8546993371212,0.537204529361175
"173","high noise","Invalid",22,0.681818181818182,74.2542613636364,0.710616347665729
"173","high noise","non-predictive",24,0.708333333333333,79.0907118055556,0.613194887317756
"173","high noise","Valid",84,0.535714285714286,75.6913442460317,0.554135624455133
"174","low noise","Invalid",17,1,99.9923406862745,0.530972373836181
"174","low noise","non-predictive",24,1,98.9963107638889,0.483144228385451
"174","low noise","Valid",90,1,99.447337962963,0.427963942967148
"174","high noise","Invalid",25,0.6,68.0208333333333,0.678215209608898
"174","high noise","non-predictive",24,0.583333333333333,73.095703125,0.615757630381267
"174","high noise","Valid",81,0.679012345679012,75.0819830246914,0.638244495954203
"175","low noise","Invalid",21,1,95.6163194444444,0.599378248349586
"175","low noise","non-predictive",23,1,94.435009057971,0.506578638299328
"175","low noise","Valid",83,1,95.2591616465863,0.588790662128041
"175","high noise","Invalid",19,0.684210526315789,28.1798245614035,0.755445670789891
"175","high noise","non-predictive",23,0.652173913043478,44.5822010869565,0.605852478447006
"175","high noise","Valid",86,0.662790697674419,33.7542393410853,0.838221150294737
"176","low noise","Invalid",20,1,98.6458333333333,0.808482190972427
"176","low noise","non-predictive",23,1,95.1596467391304,0.856258432922439
"176","low noise","Valid",80,1,96.4208984375,0.812015159361181
"176","high noise","Invalid",9,0.888888888888889,54.4704861111111,1.08570901744275
"176","high noise","non-predictive",21,0.904761904761905,59.6168154761905,1.15706656421978
"176","high noise","Valid",80,0.875,55.6591796875,1.21981737363676
"177","low noise","Invalid",20,1,98.7760416666667,0.653877778782043
"177","low noise","non-predictive",24,1,99.6310763888889,0.564765853831584
"177","low noise","Valid",85,0.988235294117647,98.6213235294118,0.587056296363966
"177","high noise","Invalid",19,0.473684210526316,57.6548793859649,1.08377075018239
"177","high noise","non-predictive",22,0.590909090909091,63.1451231060606,0.978439864607274
"177","high noise","Valid",75,0.693333333333333,60.0607638888889,1.00972799808874
"179","low noise","Invalid",16,1,99.9186197916667,0.475999892820255
"179","low noise","non-predictive",21,1,99.9069940476191,0.562185048458299
"179","low noise","Valid",71,1,98.8024501173709,0.625615913429114
"179","high noise","Invalid",19,0.842105263157895,87.2464364035088,0.852749232380455
"179","high noise","non-predictive",16,0.9375,88.3463541666667,0.773829299934732
"179","high noise","Valid",63,0.952380952380952,84.7387566137566,0.883608410665248
"181","low noise","Invalid",17,1,83.2414215686275,0.835149345193606
"181","low noise","non-predictive",24,0.958333333333333,80.9841579861111,0.809502730121797
"181","low noise","Valid",81,0.987654320987654,81.5473894032922,0.802415355863222
"181","high noise","Invalid",21,0.523809523809524,45.9387400793651,1.1075133227721
"181","high noise","non-predictive",23,0.652173913043478,42.5668025362319,1.13086942798438
"181","high noise","Valid",83,0.710843373493976,47.1558107429719,1.13198655371902
"182","low noise","Invalid",18,1,73.3289930555556,0.53671632972934
"182","low noise","non-predictive",24,1,77.5065104166667,0.448525790159086
"182","low noise","Valid",89,1,78.8916198501873,0.406842406623306
"182","high noise","Invalid",24,0.625,48.8823784722222,0.702723743069024
"182","high noise","non-predictive",23,0.782608695652174,50.4302536231884,0.62039410096654
"182","high noise","Valid",84,0.773809523809524,49.1164434523809,0.705871201911664
"183","low noise","Invalid",15,0.866666666666667,78.5503472222222,0.62217520684159
"183","low noise","non-predictive",24,0.916666666666667,82.9047309027778,0.658020361234473
"183","low noise","Valid",91,0.945054945054945,86.6114354395604,0.606664558437622
"183","high noise","Invalid",23,0.782608695652174,72.2995923913044,0.73776144556114
"183","high noise","non-predictive",24,0.791666666666667,66.7371961805555,0.743765045636488
"183","high noise","Valid",74,0.743243243243243,60.5996621621622,0.795079954695334
"184","low noise","Invalid",22,1,86.3222064393939,0.839553905047731
"184","low noise","non-predictive",22,1,87.0797821969697,0.714687140124046
"184","low noise","Valid",77,0.987012987012987,83.3417884199134,0.750531240386054
"184","high noise","Invalid",18,0.666666666666667,63.9105902777778,0.923331121933491
"184","high noise","non-predictive",24,0.625,62.3697916666667,0.869137523928657
"184","high noise","Valid",84,0.571428571428571,60.3577628968254,0.933530112731248
"185","low noise","Invalid",19,1,91.8996710526316,0.712634493860318
"185","low noise","non-predictive",24,1,91.3791232638889,0.732884712619125
"185","low noise","Valid",86,1,89.8346656976744,0.744869538325665
"185","high noise","Invalid",19,0.631578947368421,56.0375548245614,1.11651849199552
"185","high noise","non-predictive",24,0.583333333333333,61.6482204861111,0.992769194868743
"185","high noise","Valid",78,0.730769230769231,57.4469150641026,1.08733631758234
"186","low noise","Invalid",19,0.947368421052632,91.3788377192982,0.609501700039561
"186","low noise","non-predictive",24,1,87.3101128472222,0.635817589408058
"186","low noise","Valid",88,1,90.7137784090909,0.570853110310219
"186","high noise","Invalid",16,0.75,56.9091796875,0.945440941242851
"186","high noise","non-predictive",24,0.75,52.2677951388889,0.938343215651305
"186","high noise","Valid",87,0.724137931034483,58.9424688697318,0.877246578957286
"187","low noise","Invalid",21,1,88.188244047619,0.685966289724179
"187","low noise","non-predictive",23,0.956521739130435,94.0330615942029,0.588328258696255
"187","low noise","Valid",84,0.976190476190476,93.5484871031746,0.609137239620655
"187","high noise","Invalid",20,0.7,47.87109375,0.974997914786218
"187","high noise","non-predictive",24,0.666666666666667,40.0770399305556,0.897909339008038
"187","high noise","Valid",87,0.747126436781609,49.3220186781609,0.887455885626386
"188","low noise","Invalid",16,1,83.154296875,0.843299192478299
"188","low noise","non-predictive",23,0.956521739130435,66.9100996376812,0.802420445469856
"188","low noise","Valid",75,1,71.5086805555556,0.784983121516804
"188","high noise","Invalid",21,0.761904761904762,39.0252976190476,0.754668942347746
"188","high noise","non-predictive",24,0.625,34.5594618055556,0.805727367507643
"188","high noise","Valid",76,0.671052631578947,30.5218612938597,0.875751234724272
"189","low noise","Invalid",16,1,100,0.736238260229584
"189","low noise","non-predictive",23,1,100,0.751176340444742
"189","low noise","Valid",86,1,98.4541545542636,0.744560333349211
"189","high noise","Invalid",22,0.954545454545455,66.2582859848485,1.14222500179577
"189","high noise","non-predictive",20,0.9,70.8723958333333,1.04772522250423
"189","high noise","Valid",76,0.934210526315789,77.6350054824561,1.06382404000645
"190","high noise","non-predictive",1,1,38.0208333333333,0.981405653292313
"192","low noise","Invalid",19,1,98.1222587719298,0.803782009985298
"192","low noise","non-predictive",23,1,99.9773550724638,0.934017439291853
"192","low noise","Valid",85,0.988235294117647,96.6973039215686,0.910662674284814
"192","high noise","Invalid",21,0.857142857142857,96.1123511904762,1.17077735179503
"192","high noise","non-predictive",22,1,100,1.02058588775848
"192","high noise","Valid",74,0.959459459459459,96.4738175675676,1.01776729217051
"193","high noise","Invalid",1,0,39.84375,1.64753187494352
"193","high noise","Valid",3,0.333333333333333,44.6180555555556,1.22476108775784
"194","low noise","Invalid",19,1,80.6469298245614,0.818407153416622
"194","low noise","non-predictive",24,1,90.2886284722222,0.817857706938715
"194","low noise","Valid",80,1,88.2242838541667,0.832465419918299
"194","high noise","Invalid",14,0.642857142857143,49.9534970238095,1.28057097597048
"194","high noise","non-predictive",19,0.473684210526316,45.874451754386,1.19047648879994
"194","high noise","Valid",70,0.714285714285714,54.0215773809524,1.0913588354364
"196","low noise","Invalid",25,1,99.703125,0.855872351462021
"196","low noise","non-predictive",24,1,98.5297309027778,0.805045582276459
"196","low noise","Valid",82,0.975609756097561,95.4157139227642,0.815628535105711
"196","high noise","Invalid",15,0.733333333333333,85.7899305555556,0.965994008289029
"196","high noise","non-predictive",24,0.458333333333333,76.4322916666667,1.13057220340124
"196","high noise","Valid",87,0.71264367816092,89.7569444444444,1.02524353620789
"197","low noise","Invalid",22,1,100,0.648844583626752
"197","low noise","non-predictive",24,1,99.9891493055556,0.625112601623793
"197","low noise","Valid",85,1,99.6078431372549,0.669276093220448
"197","high noise","Invalid",19,0.736842105263158,83.6759868421053,0.91067980791099
"197","high noise","non-predictive",24,0.583333333333333,84.619140625,0.873531313283213
"197","high noise","Valid",84,0.69047619047619,81.6034226190476,0.925036266692803
"198","low noise","Invalid",23,0.956521739130435,92.3346920289855,0.908121142556648
"198","low noise","non-predictive",22,1,97.7391098484849,0.769054173132066
"198","low noise","Valid",79,0.987341772151899,96.0212289029536,0.881558853098415
"198","high noise","Invalid",17,0.470588235294118,49.3030024509804,1.26879445189501
"198","high noise","non-predictive",22,0.681818181818182,50.2722537878788,1.15704274633688
"198","high noise","Valid",82,0.719512195121951,61.9664634146341,1.13322877627513
"199","low noise","Invalid",19,1,72.5397478070175,0.890178324912038
"199","low noise","non-predictive",20,1,77.1354166666667,0.736439796315972
"199","low noise","Valid",69,1,77.2267512077295,0.840254383991756
"199","high noise","Invalid",13,0.615384615384615,29.3269230769231,1.12309890048793
"199","high noise","non-predictive",19,0.578947368421053,34.4161184210526,1.11137756655042
"199","high noise","Valid",66,0.621212121212121,36.7463699494949,1.10068986411065
"202","low noise","Invalid",20,1,97.8255208333333,0.674853120627813
"202","low noise","non-predictive",24,1,98.4157986111111,0.734539518152209
"202","low noise","Valid",83,0.987951807228916,96.7024347389558,0.65972912870628
"202","high noise","Invalid",13,0.538461538461538,62.5600961538462,0.884615137796992
"202","high noise","non-predictive",24,0.583333333333333,51.1610243055556,1.02882386527684
"202","high noise","Valid",90,0.733333333333333,53.7543402777778,0.976128743115502
"203","low noise","Invalid",18,0.888888888888889,64.7641782407407,1.00046265050251
"203","low noise","non-predictive",21,0.952380952380952,76.4880952380953,0.679005840771077
"203","low noise","Valid",84,0.916666666666667,75.8014012896825,0.75480175454868
"203","high noise","Invalid",22,0.727272727272727,31.0546875,1.00845180080399
"203","high noise","non-predictive",21,0.761904761904762,29.2906746031746,1.03382269747644
"203","high noise","Valid",76,0.697368421052632,28.4659402412281,1.02946168299164
"204","low noise","Invalid",18,0.944444444444444,89.4314236111111,0.864986136361646
"204","low noise","non-predictive",23,1,89.945652173913,0.941159811012609
"204","low noise","Valid",79,1,90.2904140295359,0.859136160613403
"204","high noise","Invalid",17,0.705882352941177,53.8449754901961,0.969248847679837
"204","high noise","non-predictive",21,0.666666666666667,60.2864583333333,1.00120152707123
"204","high noise","Valid",75,0.76,57.2725694444444,1.03487505816855
"206","low noise","Invalid",18,1,98.9583333333333,0.600885856495653
"206","low noise","non-predictive",23,1,99.9433876811594,0.535763814782157
"206","low noise","Valid",86,0.976744186046512,96.8129239341085,0.627899210358602
"206","high noise","Invalid",24,0.541666666666667,62.1310763888889,0.978540366913269
"206","high noise","non-predictive",24,0.708333333333333,68.8096788194444,0.80614947656674
"206","high noise","Valid",82,0.682926829268293,66.0060975609756,0.849231773004981
"207","low noise","Invalid",17,1,95.6188725490196,0.694128399577868
"207","low noise","non-predictive",24,0.958333333333333,90.8420138888889,0.665078948940694
"207","low noise","Valid",84,0.988095238095238,90.1227678571429,0.618873087290142
"207","high noise","Invalid",17,0.588235294117647,53.8373161764706,0.827645287232692
"207","high noise","non-predictive",22,0.636363636363636,55.374053030303,0.885922095664268
"207","high noise","Valid",80,0.7875,58.9713541666667,0.950263005803572
"208","low noise","Invalid",19,1,92.2765899122807,0.652165291022117
"208","low noise","non-predictive",24,0.958333333333333,93.06640625,0.651770583062898
"208","low noise","Valid",87,0.96551724137931,94.8679956896552,0.618245225951033
"208","high noise","Invalid",21,0.285714285714286,44.7172619047619,1.2058459081177
"208","high noise","non-predictive",23,0.521739130434783,48.4205163043478,0.949998250929638
"208","high noise","Valid",81,0.716049382716049,54.3933256172839,0.968769073860007
"209","low noise","Invalid",20,1,99.1015625,0.738944701338187
"209","low noise","non-predictive",23,0.956521739130435,96.2239583333333,0.646462319843957
"209","low noise","Valid",84,1,98.1600322420635,0.70410849984702
"209","high noise","Invalid",15,0.666666666666667,46.40625,1.17581924369248
"209","high noise","non-predictive",22,0.681818181818182,36.1150568181818,1.35642447858118
"209","high noise","Valid",75,0.693333333333333,47.3940972222222,1.09127502260419
"210","low noise","Invalid",18,0.944444444444444,78.8700810185185,0.792049045286452
"210","low noise","non-predictive",24,1,82.8776041666667,0.796230454570226
"210","low noise","Valid",88,0.965909090909091,85.3693181818182,0.723651229472704
"210","high noise","Invalid",17,0.647058823529412,63.5416666666667,0.865246438133696
"210","high noise","non-predictive",22,0.590909090909091,51.1955492424242,1.02776261583098
"210","high noise","Valid",80,0.7125,55.4248046875,1.02818255195743
"211","low noise","Invalid",20,1,80.2799479166667,0.853011099144351
"211","low noise","non-predictive",22,1,86.0203598484848,0.760497878242115
"211","low noise","Valid",82,1,80.3591844512195,0.865154849268814
"211","high noise","Invalid",19,0.631578947368421,35.3892543859649,1.11723903098487
"211","high noise","non-predictive",23,0.565217391304348,33.4069293478261,1.18293453602161
"211","high noise","Valid",84,0.595238095238095,36.487785218254,1.22110067169637
"212","low noise","Invalid",17,1,87.890625,0.658952608964789
"212","low noise","non-predictive",24,0.958333333333333,94.3196614583333,0.503430620379125
"212","low noise","Valid",89,1,90.7376521535581,0.576659693748931
"212","high noise","Invalid",25,0.6,37.5208333333333,0.75827138855122
"212","high noise","non-predictive",24,0.666666666666667,38.4385850694444,0.889319494803203
"212","high noise","Valid",79,0.734177215189873,46.7118275316456,0.82010213081442
"213","low noise","Invalid",18,1,98.6472800925926,0.756916089073961
"213","low noise","non-predictive",24,1,99.9837239583333,0.683193615851148
"213","low noise","Valid",87,1,98.4300167624521,0.651851541459047
"213","high noise","Invalid",19,0.526315789473684,78.1181469298246,1.04585432506313
"213","high noise","non-predictive",24,0.708333333333333,80.2083333333333,1.03046975515705
"213","high noise","Valid",86,0.697674418604651,75.3542877906977,0.962148043987623
"216","low noise","Invalid",20,1,84.2057291666667,0.744384691445157
"216","low noise","non-predictive",24,1,85.8778211805555,0.635109672196753
"216","low noise","Valid",81,1,85.4504243827161,0.669205734233177
"216","high noise","Invalid",16,0.625,40.5843098958333,1.3570678896067
"216","high noise","non-predictive",19,0.631578947368421,43.5649671052632,1.23793604133013
"216","high noise","Valid",74,0.702702702702703,54.4886683558559,1.21399336794354
"218","low noise","Invalid",21,1,94.53125,0.428430947741227
"218","low noise","non-predictive",24,1,99.169921875,0.464573901777233
"218","low noise","Valid",85,1,87.0404411764706,0.402502198062618
"218","high noise","Invalid",21,0.761904761904762,61.8241567460317,0.731415231556942
"218","high noise","non-predictive",24,0.666666666666667,71.7990451388889,0.668623734867045
"218","high noise","Valid",84,0.69047619047619,62.1217757936508,0.735948004751533
"219","low noise","Invalid",19,1,92.687774122807,0.656284140116584
"219","low noise","non-predictive",24,1,92.3719618055556,0.625845020171255
"219","low noise","Valid",87,1,91.168283045977,0.642834085658
"219","high noise","Invalid",22,0.681818181818182,57.8776041666667,0.871793405385688
"219","high noise","non-predictive",24,0.541666666666667,60.7747395833333,0.699794683799458
"219","high noise","Valid",84,0.630952380952381,53.0164930555556,0.941066176580664
"220","low noise","Invalid",23,0.91304347826087,91.6440217391304,1.04054513694111
"220","low noise","non-predictive",24,1,99.7721354166667,0.992269424905923
"220","low noise","Valid",84,0.988095238095238,98.5615079365079,0.920025814964902
"220","high noise","Invalid",18,0.5,38.3680555555556,1.13057534899821
"220","high noise","non-predictive",23,0.608695652173913,36.4073822463768,1.11498461986649
"220","high noise","Valid",85,0.658823529411765,41.6819852941176,1.13140696671463
"221","low noise","Invalid",22,1,94.3477746212121,0.430394285972315
"221","low noise","non-predictive",24,1,97.0648871527778,0.42529856277785
"221","low noise","Valid",84,1,92.4463665674603,0.469923716551247
"221","high noise","Invalid",19,0.736842105263158,38.171600877193,0.862344937656369
"221","high noise","non-predictive",23,0.652173913043478,31.8217844202899,0.896519422622236
"221","high noise","Valid",86,0.604651162790698,43.7394016472868,0.705975627431884
"224","low noise","Invalid",22,1,92.3650568181818,0.609610468942926
"224","low noise","non-predictive",24,1,94.5366753472222,0.563772582895278
"224","low noise","Valid",86,1,91.8407824612403,0.527442094582934
"224","high noise","Invalid",15,0.666666666666667,64.3576388888889,0.813713103501747
"224","high noise","non-predictive",24,0.666666666666667,60.2376302083333,0.660627174482215
"224","high noise","Valid",90,0.777777777777778,60.4050925925926,0.743274984387163
"225","low noise","Invalid",18,1,87.0659722222222,0.586461922722973
"225","low noise","non-predictive",24,1,92.2309027777778,0.55956884213568
"225","low noise","Valid",87,1,94.1570881226054,0.58001542195742
"225","high noise","Invalid",23,0.434782608695652,54.3591485507246,0.970056181692559
"225","high noise","non-predictive",24,0.666666666666667,58.8975694444444,0.856956069939769
"225","high noise","Valid",83,0.746987951807229,55.8562374497992,0.896410156605227
"226","low noise","Invalid",19,1,76.3569078947368,0.692323854560719
"226","low noise","non-predictive",24,1,78.1684027777778,0.579446251222786
"226","low noise","Valid",87,1,85.280471743295,0.626891981743426
"226","high noise","Invalid",22,0.772727272727273,22.0111268939394,1.04171224005139
"226","high noise","non-predictive",22,0.772727272727273,20.022490530303,1.01341003464239
"226","high noise","Valid",83,0.759036144578313,22.7252761044177,0.926036865705714
"227","low noise","Invalid",15,1,87.9340277777778,1.09736826575051
"227","low noise","non-predictive",21,1,88.2440476190476,1.05137167151441
"227","low noise","Valid",82,1,89.2752794715447,1.08107477775207
"227","high noise","Invalid",20,0.7,56.50390625,1.38338192417286
"227","high noise","non-predictive",20,0.65,60.21484375,1.16689290717477
"227","high noise","Valid",62,0.774193548387097,55.9559811827957,1.36098500874434
"228","low noise","Invalid",24,1,76.7740885416667,0.94214285236861
"228","low noise","non-predictive",23,0.956521739130435,78.5439311594203,0.824170887672706
"228","low noise","Valid",78,1,80.5138221153846,0.870116820439505
"228","high noise","Invalid",13,0.769230769230769,40.1442307692308,1.28433888255117
"228","high noise","non-predictive",22,0.727272727272727,55.3562973484849,1.13991510815156
"228","high noise","Valid",78,0.846153846153846,47.3457532051282,1.07659415580714
"229","low noise","Invalid",21,1,73.7289186507936,0.612510491761246
"229","low noise","non-predictive",22,1,73.4730113636364,0.659324526130645
"229","low noise","Valid",86,1,78.2552083333333,0.645582220934028
"229","high noise","Invalid",21,0.714285714285714,33.4573412698413,0.786339880898595
"229","high noise","non-predictive",24,0.791666666666667,26.4214409722222,0.923176441700586
"229","high noise","Valid",85,0.764705882352941,24.4561887254902,0.87274504244218
"230","low noise","Invalid",22,1,100,0.651574684635059
"230","low noise","non-predictive",24,0.958333333333333,93.8259548611111,0.64200690962025
"230","low noise","Valid",85,1,96.1335784313725,0.638288313339409
"230","high noise","Invalid",16,0.5625,52.8401692708333,0.910221372847445
"230","high noise","non-predictive",24,0.75,46.6037326388889,0.864851443931305
"230","high noise","Valid",91,0.681318681318681,47.8737408424908,0.81932942054214
"231","low noise","Invalid",17,1,87.9978553921569,0.630227606634006
"231","low noise","non-predictive",23,1,93.1159420289855,0.610968718234368
"231","low noise","Valid",88,0.988636363636364,92.0321377840909,0.713616374726619
"231","high noise","Invalid",24,0.666666666666667,43.8151041666667,1.0641561956824
"231","high noise","non-predictive",24,0.75,49.2350260416667,1.05283961155995
"231","high noise","Valid",81,0.62962962962963,44.1856352880658,1.01940227752655
"233","low noise","Invalid",19,1,90.9950657894737,0.879227027027427
"233","low noise","non-predictive",24,1,94.1189236111111,0.761566515934343
"233","low noise","Valid",85,1,91.9806985294118,0.813339317121598
"233","high noise","Invalid",21,0.571428571428571,15.5815972222222,1.18648189553503
"233","high noise","non-predictive",22,0.636363636363636,14.7786458333333,1.14802048609338
"233","high noise","Valid",80,0.7,17.6123046875,1.06838596951566
"234","low noise","Invalid",20,1,100,0.554152850760147
"234","low noise","non-predictive",24,1,100,0.566921685812607
"234","low noise","Valid",88,1,100,0.549961745754858
"234","high noise","Invalid",22,0.772727272727273,74.6922348484848,0.889822979457677
"234","high noise","non-predictive",24,0.791666666666667,75.5588107638889,0.880974369307902
"234","high noise","Valid",84,0.714285714285714,76.3702876984127,0.954723344306417
"235","low noise","Invalid",19,1,92.1532346491228,0.696064359447184
"235","low noise","non-predictive",24,0.958333333333333,83.4364149305556,0.759250763939538
"235","low noise","Valid",87,0.988505747126437,86.5960249042146,0.727324943989515
"235","high noise","Invalid",22,0.727272727272727,66.3411458333333,1.02345626696479
"235","high noise","non-predictive",24,0.791666666666667,64.7569444444444,0.928346532736517
"235","high noise","Valid",85,0.776470588235294,66.9393382352941,0.879553838627523
"236","low noise","Invalid",19,0.947368421052632,83.1483004385965,0.533073170453702
"236","low noise","non-predictive",24,1,92.8873697916667,0.484866509301355
"236","low noise","Valid",87,0.988505747126437,86.2218630268199,0.534495771394229
"236","high noise","Invalid",17,0.764705882352941,60.9298406862745,0.651757068534875
"236","high noise","non-predictive",24,0.583333333333333,55.9841579861111,0.701002518103148
"236","high noise","Valid",89,0.674157303370786,52.9552902621723,0.686348802501629
"237","low noise","Invalid",17,1,85.4856004901961,0.869103048667859
"237","low noise","non-predictive",24,1,84.3315972222222,0.923154587071622
"237","low noise","Valid",86,0.988372093023256,84.352289244186,0.969520511316829
"237","high noise","Invalid",14,0.571428571428571,50.9672619047619,1.43632102842509
"237","high noise","non-predictive",21,0.619047619047619,52.5979662698413,1.26056451068836
"237","high noise","Valid",71,0.746478873239437,55.1954958920188,1.32899371472279
"238","low noise","Invalid",23,1,100,0.227422766387463
"238","low noise","non-predictive",24,1,100,0.149421788461041
"238","low noise","Valid",83,1,99.8854794176707,0.206843188310222
"238","high noise","Invalid",17,0.588235294117647,92.8385416666667,0.282801815363414
"238","high noise","non-predictive",24,0.5,99.9728732638889,0.234124800927627
"238","high noise","Valid",89,0.539325842696629,96.9671699438202,0.257392137175363
"239","low noise","Invalid",19,1,100,0.926171421673836
"239","low noise","non-predictive",24,1,99.9565972222222,1.03313043654392
"239","low noise","Valid",80,0.9875,98.740234375,0.93363979718124
"239","high noise","Invalid",18,0.722222222222222,92.0934606481482,1.22375792095489
"239","high noise","non-predictive",22,0.772727272727273,93.2291666666667,1.06643805316311
"239","high noise","Valid",81,0.679012345679012,92.2952031893004,1.12686883614192
"240","low noise","Invalid",17,1,99.9157475490196,0.773698255693649
"240","low noise","non-predictive",24,1,99.7667100694444,0.760706083887878
"240","low noise","Valid",84,1,99.8496403769841,0.756748837745926
"240","high noise","Invalid",19,0.684210526315789,39.4599780701754,1.16183422367383
"240","high noise","non-predictive",24,0.75,43.9398871527778,1.09143463568762
"240","high noise","Valid",80,0.625,54.3310546875,1.0509981565323
"241","low noise","Invalid",24,1,99.8643663194444,0.563992800346265
"241","low noise","non-predictive",23,1,98.9866394927536,0.508767891290557
"241","low noise","Valid",83,1,97.6923318273092,0.599082349886534
"241","high noise","Invalid",11,0.636363636363636,30.2320075757576,0.955067050050606
"241","high noise","non-predictive",21,0.523809523809524,27.4367559523809,0.944824635982514
"241","high noise","Valid",76,0.671052631578947,29.7046326754386,0.910430924366473
"243","low noise","Invalid",13,1,94.2207532051282,0.573981319231769
"243","low noise","non-predictive",23,1,93.3990036231884,0.439763581481479
"243","low noise","Valid",93,0.989247311827957,95.2382952508961,0.413591634564763
"243","high noise","Invalid",24,0.666666666666667,57.9481336805556,0.758071320664991
"243","high noise","non-predictive",24,0.708333333333333,47.2113715277778,0.618983538811638
"243","high noise","Valid",84,0.785714285714286,56.4902653769841,0.661088539858437
"244","low noise","Invalid",18,1,95.8622685185185,0.39375501521863
"244","low noise","non-predictive",24,1,92.4967447916667,0.489498989035686
"244","low noise","Valid",87,1,93.1842672413793,0.482636531416177
"244","high noise","Invalid",23,0.565217391304348,28.6288496376811,0.894197761992236
"244","high noise","non-predictive",24,0.833333333333333,42.236328125,0.689514799256964
"244","high noise","Valid",84,0.714285714285714,35.089595734127,0.796500402145154
"245","low noise","Invalid",17,1,99.984681372549,0.664914456716574
"245","low noise","non-predictive",24,1,99.9077690972222,0.813392338527289
"245","low noise","Valid",89,1,98.8647003745318,0.656058253913993
"245","high noise","Invalid",25,0.84,67.6614583333333,0.82836687215604
"245","high noise","non-predictive",23,0.782608695652174,51.7436594202899,0.87761893290419
"245","high noise","Valid",81,0.814814814814815,63.3632330246914,0.806621577863777
"246","low noise","Invalid",18,1,100,0.913306885631755
"246","low noise","non-predictive",24,1,100,0.796773733377146
"246","low noise","Valid",90,1,99.5413773148148,0.7814762904257
"246","high noise","Invalid",18,0.555555555555556,66.9270833333333,1.07366937595523
"246","high noise","non-predictive",23,0.565217391304348,65.8061594202899,1.08906378878442
"246","high noise","Valid",85,0.788235294117647,65.8532475490196,0.993582031664932
"247","low noise","Invalid",24,1,98.5297309027778,0.574351682482908
"247","low noise","non-predictive",24,1,99.3815104166667,0.563343482994242
"247","low noise","Valid",84,0.988095238095238,94.9854290674603,0.586280812004891
"247","high noise","Invalid",18,0.833333333333333,68.2436342592593,0.987007700230202
"247","high noise","non-predictive",24,0.708333333333333,72.7105034722222,0.834783787761504
"247","high noise","Valid",88,0.715909090909091,67.581084280303,0.905207822493553
"248","low noise","Invalid",23,0.956521739130435,96.5692934782609,0.648327255560814
"248","low noise","non-predictive",24,1,98.5080295138889,0.740932267188328
"248","low noise","Valid",76,0.986842105263158,97.2570586622807,0.631871578222337
"248","high noise","Invalid",16,0.875,85.2701822916667,0.758379177306779
"248","high noise","non-predictive",22,1,86.0677083333333,0.642899663759057
"248","high noise","Valid",83,0.939759036144578,89.613140060241,0.713669178510893
"249","low noise","Invalid",12,1,99.7938368055556,0.754340188655381
"249","low noise","non-predictive",24,1,100,0.662490514931657
"249","low noise","Valid",95,1,99.8533442982456,0.669591906955956
"249","high noise","Invalid",25,0.92,63.8072916666667,1.09533146586269
"249","high noise","non-predictive",21,0.952380952380952,70.7899305555556,1.02646608818101
"249","high noise","Valid",79,0.886075949367089,71.4695411392405,1.09816947896505
"250","low noise","Invalid",18,1,96.1154513888889,0.468002263094402
"250","low noise","non-predictive",24,1,96.7339409722222,0.403750401494714
"250","low noise","Valid",88,0.988636363636364,95.6069483901515,0.479344239278527
"250","high noise","Invalid",19,0.736842105263158,70.7579495614035,0.608075159454816
"250","high noise","non-predictive",24,0.708333333333333,63.8617621527778,0.60221608132512
"250","high noise","Valid",88,0.681818181818182,65.8484256628788,0.719486350743947
"251","low noise","Invalid",12,0.5,70.5186631944444,0.59836549051882
"251","low noise","non-predictive",22,0.772727272727273,78.1664299242424,0.620295258302411
"251","low noise","Valid",76,0.815789473684211,74.0542763157895,0.689673761040658
"251","high noise","Invalid",22,0.636363636363636,73.1178977272727,0.646333955164829
"251","high noise","non-predictive",23,0.652173913043478,79.4610507246377,0.718127127372376
"251","high noise","Valid",66,0.545454545454545,68.7125157828283,0.725935399447653
"253","low noise","Invalid",22,1,94.0104166666667,0.600242967040024
"253","low noise","non-predictive",24,0.958333333333333,87.9937065972222,0.557852255413309
"253","low noise","Valid",84,0.988095238095238,92.5486731150794,0.588406906790278
"253","high noise","Invalid",14,0.571428571428571,61.6071428571429,0.669041352679155
"253","high noise","non-predictive",23,0.478260869565217,60.3260869565217,0.709192321170121
"253","high noise","Valid",92,0.608695652173913,65.2584352355072,0.657924808015156
"254","low noise","Invalid",24,1,97.6508246527778,0.429278396768495
"254","low noise","non-predictive",24,1,98.7087673611111,0.483633959956933
"254","low noise","Valid",84,1,98.2530381944444,0.386830549587363
"254","high noise","Invalid",12,0.666666666666667,57.5412326388889,0.780112354589315
"254","high noise","non-predictive",24,0.5,63.3083767361111,0.6642578553486
"254","high noise","Valid",93,0.580645161290323,67.2407034050179,0.652105240316521
"256","low noise","Invalid",17,0.941176470588235,94.921875,0.614111212903962
"256","low noise","non-predictive",24,1,98.73046875,0.517380149840998
"256","low noise","Valid",89,1,99.7556764981273,0.330072165833096
"256","high noise","Invalid",18,0.5,91.5436921296296,0.717613379419264
"256","high noise","non-predictive",23,0.826086956521739,92.0459692028985,0.899734336558891
"256","high noise","Valid",86,0.895348837209302,94.8219476744186,0.598016279787475
